#temperature (K)# #Gibbs free energy (kJ / mol)#
100.0 -11200302.9347
110.0 -11200306.727
120.0 -11200310.6936
130.0 -11200314.8371
140.0 -11200319.1593
150.0 -11200323.6611
160.0 -11200328.3431
170.0 -11200333.2054
180.0 -11200338.2476
190.0 -11200343.4692
200.0 -11200348.8694
210.0 -11200354.4471
220.0 -11200360.2011
230.0 -11200366.1299
240.0 -11200372.2321
250.0 -11200378.5061
260.0 -11200384.9501
270.0 -11200391.5622
280.0 -11200398.3407
290.0 -11200405.2835
300.0 -11200412.3888
310.0 -11200419.6544
320.0 -11200427.0785
330.0 -11200434.6589
340.0 -11200442.3936
350.0 -11200450.2806
360.0 -11200458.3178
370.0 -11200466.5031
380.0 -11200474.8346
390.0 -11200483.3102
400.0 -11200491.928
410.0 -11200500.686
420.0 -11200509.5821
430.0 -11200518.6146
440.0 -11200527.7816
450.0 -11200537.0811
460.0 -11200546.5113
470.0 -11200556.0705
480.0 -11200565.7568
490.0 -11200575.5686
500.0 -11200585.5041
510.0 -11200595.5616
520.0 -11200605.7396
530.0 -11200616.0363
540.0 -11200626.4502
550.0 -11200636.9798
560.0 -11200647.6236
570.0 -11200658.38
580.0 -11200669.2475
590.0 -11200680.2249
600.0 -11200691.3106
610.0 -11200702.5033
620.0 -11200713.8017
630.0 -11200725.2044
640.0 -11200736.7101
650.0 -11200748.3177
660.0 -11200760.0257
670.0 -11200771.8332
680.0 -11200783.7387
690.0 -11200795.7413
700.0 -11200807.8397
710.0 -11200820.0329
720.0 -11200832.3197
730.0 -11200844.699
740.0 -11200857.1699
750.0 -11200869.7313
760.0 -11200882.3822
770.0 -11200895.1215
780.0 -11200907.9484
790.0 -11200920.8618
800.0 -11200933.8609
810.0 -11200946.9447
820.0 -11200960.1124
830.0 -11200973.363
840.0 -11200986.6957
850.0 -11201000.1096
860.0 -11201013.6039
870.0 -11201027.1779
880.0 -11201040.8306
890.0 -11201054.5613
900.0 -11201068.3693
910.0 -11201082.2538
920.0 -11201096.2139
930.0 -11201110.2491
940.0 -11201124.3586
950.0 -11201138.5417
960.0 -11201152.7977
970.0 -11201167.1259
980.0 -11201181.5256
990.0 -11201195.9962
1000.0 -11201210.5371
1010.0 -11201225.1476
1020.0 -11201239.827
1030.0 -11201254.5748
1040.0 -11201269.3904
1050.0 -11201284.2732
1060.0 -11201299.2226
1070.0 -11201314.238
1080.0 -11201329.3188
1090.0 -11201344.4646
1100.0 -11201359.6747
1110.0 -11201374.9486
1120.0 -11201390.2858
1130.0 -11201405.6857
1140.0 -11201421.148
1150.0 -11201436.6719
1160.0 -11201452.2572
1170.0 -11201467.9031
1180.0 -11201483.6094
1190.0 -11201499.3755
1200.0 -11201515.2009
1210.0 -11201531.0851
1220.0 -11201547.0278
1230.0 -11201563.0285
1240.0 -11201579.0867
1250.0 -11201595.2021
1260.0 -11201611.3741
1270.0 -11201627.6023
1280.0 -11201643.8864
1290.0 -11201660.2259
1300.0 -11201676.6204
1310.0 -11201693.0696
1320.0 -11201709.573
1330.0 -11201726.1302
1340.0 -11201742.7409
1350.0 -11201759.4047
1360.0 -11201776.1212
1370.0 -11201792.89
1380.0 -11201809.7108
1390.0 -11201826.5833
1400.0 -11201843.507
1410.0 -11201860.4816
1420.0 -11201877.5069
1430.0 -11201894.5824
1440.0 -11201911.7078
1450.0 -11201928.8828
1460.0 -11201946.107
1470.0 -11201963.3802
1480.0 -11201980.702
1490.0 -11201998.0721
1500.0 -11202015.4902
1510.0 -11202032.9559
1520.0 -11202050.4691
1530.0 -11202068.0294
1540.0 -11202085.6364
1550.0 -11202103.29
1560.0 -11202120.9898
1570.0 -11202138.7355
1580.0 -11202156.5268
1590.0 -11202174.3636
1600.0 -11202192.2454
1610.0 -11202210.1721
1620.0 -11202228.1433
1630.0 -11202246.1588
1640.0 -11202264.2184
1650.0 -11202282.3217
1660.0 -11202300.4686
1670.0 -11202318.6587
1680.0 -11202336.8918
1690.0 -11202355.1677
1700.0 -11202373.4862
1710.0 -11202391.8469
1720.0 -11202410.2497
1730.0 -11202428.6943
1740.0 -11202447.1805
1750.0 -11202465.708
1760.0 -11202484.2767
1770.0 -11202502.8862
1780.0 -11202521.5364
1790.0 -11202540.2271
1800.0 -11202558.9579
1810.0 -11202577.7288
1820.0 -11202596.5395
1830.0 -11202615.3898
1840.0 -11202634.2795
1850.0 -11202653.2083
1860.0 -11202672.1761
1870.0 -11202691.1827
1880.0 -11202710.2278
1890.0 -11202729.3112
1900.0 -11202748.4329
1910.0 -11202767.5925
1920.0 -11202786.7899
1930.0 -11202806.0248
1940.0 -11202825.2972
1950.0 -11202844.6068
1960.0 -11202863.9534
1970.0 -11202883.3368
1980.0 -11202902.7569
1990.0 -11202922.2134
2000.0 -11202941.7063
2010.0 -11202961.2352
2020.0 -11202980.8001
2030.0 -11203000.4008
2040.0 -11203020.0371
2050.0 -11203039.7088
2060.0 -11203059.4158
2070.0 -11203079.1578
2080.0 -11203098.9348
2090.0 -11203118.7466
2100.0 -11203138.5929
2110.0 -11203158.4737
2120.0 -11203178.3888
2130.0 -11203198.338
2140.0 -11203218.3211
2150.0 -11203238.3381
2160.0 -11203258.3887
2170.0 -11203278.4728
2180.0 -11203298.5903
2190.0 -11203318.741
2200.0 -11203338.9248
2210.0 -11203359.1414
2220.0 -11203379.3908
2230.0 -11203399.6728
2240.0 -11203419.9873
2250.0 -11203440.3342
2260.0 -11203460.7132
2270.0 -11203481.1243
2280.0 -11203501.5673
2290.0 -11203522.042
2300.0 -11203542.5484
2310.0 -11203563.0863
2320.0 -11203583.6556
2330.0 -11203604.2562
2340.0 -11203624.8878
2350.0 -11203645.5504
2360.0 -11203666.2438
2370.0 -11203686.968
2380.0 -11203707.7228
2390.0 -11203728.508
2400.0 -11203749.3236
2410.0 -11203770.1694
2420.0 -11203791.0452
2430.0 -11203811.9511
2440.0 -11203832.8868
2450.0 -11203853.8522
2460.0 -11203874.8473
2470.0 -11203895.8718
2480.0 -11203916.9257
2490.0 -11203938.0089
2500.0 -11203959.1212
2510.0 -11203980.2625
2520.0 -11204001.4328
2530.0 -11204022.6318
2540.0 -11204043.8595
2550.0 -11204065.1159
2560.0 -11204086.4006
2570.0 -11204107.7138
2580.0 -11204129.0552
2590.0 -11204150.4247
2600.0 -11204171.8223
2610.0 -11204193.2478
2620.0 -11204214.7011
2630.0 -11204236.1821
2640.0 -11204257.6908
2650.0 -11204279.2269
2660.0 -11204300.7905
2670.0 -11204322.3814
2680.0 -11204343.9995
2690.0 -11204365.6447
2700.0 -11204387.3169
2710.0 -11204409.016
2720.0 -11204430.7419
2730.0 -11204452.4945
2740.0 -11204474.2738
2750.0 -11204496.0796
2760.0 -11204517.9118
2770.0 -11204539.7703
2780.0 -11204561.6551
2790.0 -11204583.566
2800.0 -11204605.503
2810.0 -11204627.4659
2820.0 -11204649.4547
2830.0 -11204671.4693
2840.0 -11204693.5095
2850.0 -11204715.5754
2860.0 -11204737.6668
2870.0 -11204759.7836
2880.0 -11204781.9257
2890.0 -11204804.0931
2900.0 -11204826.2856
2910.0 -11204848.5032
2920.0 -11204870.7458
2930.0 -11204893.0134
2940.0 -11204915.3057
2950.0 -11204937.6228
2960.0 -11204959.9645
2970.0 -11204982.3308
2980.0 -11205004.7216
2990.0 -11205027.1369
3000.0 -11205049.5764
3010.0 -11205072.0402
3020.0 -11205094.5282
3030.0 -11205117.0402
3040.0 -11205139.5763
