#temperature (K)# #Gibbs free energy (kJ / mol)#
100.0 -14934035.2271
110.0 -14934039.2824
120.0 -14934043.5496
130.0 -14934048.0341
140.0 -14934052.7399
150.0 -14934057.6704
160.0 -14934062.8277
170.0 -14934068.2136
180.0 -14934073.8289
190.0 -14934079.6743
200.0 -14934085.7496
210.0 -14934092.0545
220.0 -14934098.5882
230.0 -14934105.3497
240.0 -14934112.3377
250.0 -14934119.5507
260.0 -14934126.9868
270.0 -14934134.6442
280.0 -14934142.5209
290.0 -14934150.6146
300.0 -14934158.9231
310.0 -14934167.4441
320.0 -14934176.175
330.0 -14934185.1134
340.0 -14934194.2567
350.0 -14934203.6025
360.0 -14934213.1482
370.0 -14934222.8912
380.0 -14934232.8289
390.0 -14934242.9587
400.0 -14934253.2782
410.0 -14934263.7847
420.0 -14934274.4757
430.0 -14934285.3488
440.0 -14934296.4015
450.0 -14934307.6313
460.0 -14934319.0359
470.0 -14934330.6128
480.0 -14934342.3599
490.0 -14934354.2747
500.0 -14934366.355
510.0 -14934378.5987
520.0 -14934391.0035
530.0 -14934403.5673
540.0 -14934416.288
550.0 -14934429.1636
560.0 -14934442.192
570.0 -14934455.3713
580.0 -14934468.6995
590.0 -14934482.1747
600.0 -14934495.7951
610.0 -14934509.5588
620.0 -14934523.4641
630.0 -14934537.5092
640.0 -14934551.6923
650.0 -14934566.0119
660.0 -14934580.4661
670.0 -14934595.0535
680.0 -14934609.7725
690.0 -14934624.6214
700.0 -14934639.5988
710.0 -14934654.7032
720.0 -14934669.9331
730.0 -14934685.287
740.0 -14934700.7637
750.0 -14934716.3616
760.0 -14934732.0795
770.0 -14934747.9161
780.0 -14934763.8699
790.0 -14934779.9398
800.0 -14934796.1246
810.0 -14934812.4229
820.0 -14934828.8336
830.0 -14934845.3555
840.0 -14934861.9875
850.0 -14934878.7284
860.0 -14934895.5771
870.0 -14934912.5325
880.0 -14934929.5936
890.0 -14934946.7593
900.0 -14934964.0285
910.0 -14934981.4002
920.0 -14934998.8736
930.0 -14935016.4475
940.0 -14935034.121
950.0 -14935051.8931
960.0 -14935069.763
970.0 -14935087.7298
980.0 -14935105.7924
990.0 -14935123.9502
1000.0 -14935142.2021
1010.0 -14935160.5473
1020.0 -14935178.9851
1030.0 -14935197.5145
1040.0 -14935216.1348
1050.0 -14935234.8452
1060.0 -14935253.6449
1070.0 -14935272.5331
1080.0 -14935291.5091
1090.0 -14935310.5721
1100.0 -14935329.7214
1110.0 -14935348.9562
1120.0 -14935368.276
1130.0 -14935387.6798
1140.0 -14935407.1672
1150.0 -14935426.7374
1160.0 -14935446.3897
1170.0 -14935466.1235
1180.0 -14935485.9381
1190.0 -14935505.8329
1200.0 -14935525.8073
1210.0 -14935545.8606
1220.0 -14935565.9923
1230.0 -14935586.2017
1240.0 -14935606.4883
1250.0 -14935626.8515
1260.0 -14935647.2906
1270.0 -14935667.8052
1280.0 -14935688.3946
1290.0 -14935709.0584
1300.0 -14935729.796
1310.0 -14935750.6068
1320.0 -14935771.4903
1330.0 -14935792.446
1340.0 -14935813.4735
1350.0 -14935834.5721
1360.0 -14935855.7414
1370.0 -14935876.9809
1380.0 -14935898.2901
1390.0 -14935919.6685
1400.0 -14935941.1157
1410.0 -14935962.6312
1420.0 -14935984.2145
1430.0 -14936005.8652
1440.0 -14936027.5828
1450.0 -14936049.3669
1460.0 -14936071.2171
1470.0 -14936093.1329
1480.0 -14936115.1139
1490.0 -14936137.1597
1500.0 -14936159.2698
1510.0 -14936181.4439
1520.0 -14936203.6815
1530.0 -14936225.9822
1540.0 -14936248.3458
1550.0 -14936270.7716
1560.0 -14936293.2595
1570.0 -14936315.8089
1580.0 -14936338.4196
1590.0 -14936361.0911
1600.0 -14936383.8231
1610.0 -14936406.6152
1620.0 -14936429.467
1630.0 -14936452.3783
1640.0 -14936475.3486
1650.0 -14936498.3776
1660.0 -14936521.465
1670.0 -14936544.6104
1680.0 -14936567.8135
1690.0 -14936591.0739
1700.0 -14936614.3914
1710.0 -14936637.7655
1720.0 -14936661.1961
1730.0 -14936684.6827
1740.0 -14936708.2251
1750.0 -14936731.823
1760.0 -14936755.4759
1770.0 -14936779.1837
1780.0 -14936802.9461
1790.0 -14936826.7627
1800.0 -14936850.6332
1810.0 -14936874.5574
1820.0 -14936898.5349
1830.0 -14936922.5656
1840.0 -14936946.649
1850.0 -14936970.785
1860.0 -14936994.9732
1870.0 -14937019.2134
1880.0 -14937043.5053
1890.0 -14937067.8487
1900.0 -14937092.2432
1910.0 -14937116.6886
1920.0 -14937141.1847
1930.0 -14937165.7312
1940.0 -14937190.3278
1950.0 -14937214.9744
1960.0 -14937239.6705
1970.0 -14937264.4161
1980.0 -14937289.2108
1990.0 -14937314.0544
2000.0 -14937338.9467
2010.0 -14937363.8875
2020.0 -14937388.8764
2030.0 -14937413.9133
2040.0 -14937438.9979
2050.0 -14937464.1301
2060.0 -14937489.3095
2070.0 -14937514.536
2080.0 -14937539.8093
2090.0 -14937565.1292
2100.0 -14937590.4955
2110.0 -14937615.908
2120.0 -14937641.3665
2130.0 -14937666.8708
2140.0 -14937692.4205
2150.0 -14937718.0157
2160.0 -14937743.6559
2170.0 -14937769.3411
2180.0 -14937795.071
2190.0 -14937820.8454
2200.0 -14937846.6642
2210.0 -14937872.527
2220.0 -14937898.4339
2230.0 -14937924.3844
2240.0 -14937950.3785
2250.0 -14937976.4159
2260.0 -14938002.4966
2270.0 -14938028.6202
2280.0 -14938054.7866
2290.0 -14938080.9956
2300.0 -14938107.247
2310.0 -14938133.5407
2320.0 -14938159.8764
2330.0 -14938186.2541
2340.0 -14938212.6734
2350.0 -14938239.1343
2360.0 -14938265.6365
2370.0 -14938292.18
2380.0 -14938318.7645
2390.0 -14938345.3898
2400.0 -14938372.0558
2410.0 -14938398.7623
2420.0 -14938425.5092
2430.0 -14938452.2962
2440.0 -14938479.1233
2450.0 -14938505.9903
2460.0 -14938532.897
2470.0 -14938559.8432
2480.0 -14938586.8288
2490.0 -14938613.8536
2500.0 -14938640.9175
2510.0 -14938668.0203
2520.0 -14938695.162
2530.0 -14938722.3422
2540.0 -14938749.5609
2550.0 -14938776.8179
2560.0 -14938804.1131
2570.0 -14938831.4463
2580.0 -14938858.8174
2590.0 -14938886.2262
2600.0 -14938913.6727
2610.0 -14938941.1566
2620.0 -14938968.6777
2630.0 -14938996.2361
2640.0 -14939023.8315
2650.0 -14939051.4638
2660.0 -14939079.1328
2670.0 -14939106.8385
2680.0 -14939134.5806
2690.0 -14939162.3591
2700.0 -14939190.1738
2710.0 -14939218.0246
2720.0 -14939245.9113
2730.0 -14939273.8338
2740.0 -14939301.7921
2750.0 -14939329.7859
2760.0 -14939357.8151
2770.0 -14939385.8797
2780.0 -14939413.9794
2790.0 -14939442.1142
2800.0 -14939470.284
2810.0 -14939498.4885
2820.0 -14939526.7278
2830.0 -14939555.0016
2840.0 -14939583.3098
2850.0 -14939611.6524
2860.0 -14939640.0292
2870.0 -14939668.44
2880.0 -14939696.8849
2890.0 -14939725.3636
2900.0 -14939753.876
2910.0 -14939782.4221
2920.0 -14939811.0017
2930.0 -14939839.6147
2940.0 -14939868.2609
2950.0 -14939896.9404
2960.0 -14939925.6529
2970.0 -14939954.3983
2980.0 -14939983.1766
2990.0 -14940011.9877
3000.0 -14940040.8313
3010.0 -14940069.7075
3020.0 -14940098.6161
3030.0 -14940127.557
3040.0 -14940156.5301
