#temperature (K)# #Gibbs free energy (kJ / mol)#
100.0 -1865786.526
110.0 -1865789.0554
120.0 -1865791.62894
130.0 -1865794.24431
140.0 -1865796.89957
150.0 -1865799.59304
160.0 -1865802.3233
170.0 -1865805.0891
180.0 -1865807.88932
190.0 -1865810.723
200.0 -1865813.58924
210.0 -1865816.48724
220.0 -1865819.41625
230.0 -1865822.3756
240.0 -1865825.36462
250.0 -1865828.38272
260.0 -1865831.42932
270.0 -1865834.50385
280.0 -1865837.6058
290.0 -1865840.73465
300.0 -1865843.88991
310.0 -1865847.0711
320.0 -1865850.27776
330.0 -1865853.50944
340.0 -1865856.7657
350.0 -1865860.04613
360.0 -1865863.3503
370.0 -1865866.67781
380.0 -1865870.02828
390.0 -1865873.40132
400.0 -1865876.79656
410.0 -1865880.21364
420.0 -1865883.6522
430.0 -1865887.1119
440.0 -1865890.59241
450.0 -1865894.09338
460.0 -1865897.61452
470.0 -1865901.15549
480.0 -1865904.71601
490.0 -1865908.29577
500.0 -1865911.89449
510.0 -1865915.51188
520.0 -1865919.14767
530.0 -1865922.80159
540.0 -1865926.47338
550.0 -1865930.16278
560.0 -1865933.86955
570.0 -1865937.59343
580.0 -1865941.3342
590.0 -1865945.09162
600.0 -1865948.86547
610.0 -1865952.65553
620.0 -1865956.46157
630.0 -1865960.28339
640.0 -1865964.12079
650.0 -1865967.97355
660.0 -1865971.84149
670.0 -1865975.72442
680.0 -1865979.62214
690.0 -1865983.53448
700.0 -1865987.46124
710.0 -1865991.40227
720.0 -1865995.35738
730.0 -1865999.32641
740.0 -1866003.30919
750.0 -1866007.30557
760.0 -1866011.31538
770.0 -1866015.33847
780.0 -1866019.3747
790.0 -1866023.42391
800.0 -1866027.48596
810.0 -1866031.56071
820.0 -1866035.64801
830.0 -1866039.74774
840.0 -1866043.85976
850.0 -1866047.98394
860.0 -1866052.12015
870.0 -1866056.26827
880.0 -1866060.42818
890.0 -1866064.59974
900.0 -1866068.78285
910.0 -1866072.97739
920.0 -1866077.18324
930.0 -1866081.4003
940.0 -1866085.62844
950.0 -1866089.86758
960.0 -1866094.11759
970.0 -1866098.37839
980.0 -1866102.64985
990.0 -1866106.93189
1000.0 -1866111.22441
1010.0 -1866115.52731
1020.0 -1866119.84049
1030.0 -1866124.16386
1040.0 -1866128.49733
1050.0 -1866132.84081
1060.0 -1866137.19422
1070.0 -1866141.55746
1080.0 -1866145.93044
1090.0 -1866150.3131
1100.0 -1866154.70533
1110.0 -1866159.10707
1120.0 -1866163.51822
1130.0 -1866167.93872
1140.0 -1866172.36848
1150.0 -1866176.80743
1160.0 -1866181.2555
1170.0 -1866185.7126
1180.0 -1866190.17867
1190.0 -1866194.65363
1200.0 -1866199.13742
1210.0 -1866203.62996
1220.0 -1866208.13119
1230.0 -1866212.64104
1240.0 -1866217.15944
1250.0 -1866221.68633
1260.0 -1866226.22164
1270.0 -1866230.76531
1280.0 -1866235.31727
1290.0 -1866239.87748
1300.0 -1866244.44585
1310.0 -1866249.02234
1320.0 -1866253.60689
1330.0 -1866258.19944
1340.0 -1866262.79992
1350.0 -1866267.40829
1360.0 -1866272.02449
1370.0 -1866276.64846
1380.0 -1866281.28014
1390.0 -1866285.91949
1400.0 -1866290.56646
1410.0 -1866295.22098
1420.0 -1866299.88302
1430.0 -1866304.55251
1440.0 -1866309.2294
1450.0 -1866313.91366
1460.0 -1866318.60522
1470.0 -1866323.30405
1480.0 -1866328.01009
1490.0 -1866332.7233
1500.0 -1866337.44363
1510.0 -1866342.17103
1520.0 -1866346.90546
1530.0 -1866351.64688
1540.0 -1866356.39524
1550.0 -1866361.15049
1560.0 -1866365.9126
1570.0 -1866370.68152
1580.0 -1866375.45722
1590.0 -1866380.23964
1600.0 -1866385.02874
1610.0 -1866389.8245
1620.0 -1866394.62686
1630.0 -1866399.43579
1640.0 -1866404.25125
1650.0 -1866409.0732
1660.0 -1866413.9016
1670.0 -1866418.73641
1680.0 -1866423.5776
1690.0 -1866428.42514
1700.0 -1866433.27897
1710.0 -1866438.13907
1720.0 -1866443.00541
1730.0 -1866447.87794
1740.0 -1866452.75663
1750.0 -1866457.64145
1760.0 -1866462.53237
1770.0 -1866467.42934
1780.0 -1866472.33234
1790.0 -1866477.24133
1800.0 -1866482.15628
1810.0 -1866487.07717
1820.0 -1866492.00395
1830.0 -1866496.93659
1840.0 -1866501.87507
1850.0 -1866506.81935
1860.0 -1866511.7694
1870.0 -1866516.72519
1880.0 -1866521.6867
1890.0 -1866526.65388
1900.0 -1866531.62673
1910.0 -1866536.60519
1920.0 -1866541.58925
1930.0 -1866546.57887
1940.0 -1866551.57404
1950.0 -1866556.57471
1960.0 -1866561.58087
1970.0 -1866566.59248
1980.0 -1866571.60952
1990.0 -1866576.63196
2000.0 -1866581.65978
2010.0 -1866586.69294
2020.0 -1866591.73143
2030.0 -1866596.77522
2040.0 -1866601.82427
2050.0 -1866606.87857
2060.0 -1866611.93809
2070.0 -1866617.00281
2080.0 -1866622.0727
2090.0 -1866627.14773
2100.0 -1866632.22789
2110.0 -1866637.31315
2120.0 -1866642.40348
2130.0 -1866647.49886
2140.0 -1866652.59927
2150.0 -1866657.70469
2160.0 -1866662.81509
2170.0 -1866667.93045
2180.0 -1866673.05074
2190.0 -1866678.17595
2200.0 -1866683.30605
2210.0 -1866688.44103
2220.0 -1866693.58085
2230.0 -1866698.7255
2240.0 -1866703.87496
2250.0 -1866709.0292
2260.0 -1866714.18821
2270.0 -1866719.35196
2280.0 -1866724.52043
2290.0 -1866729.69361
2300.0 -1866734.87147
2310.0 -1866740.05399
2320.0 -1866745.24116
2330.0 -1866750.43295
2340.0 -1866755.62934
2350.0 -1866760.83031
2360.0 -1866766.03585
2370.0 -1866771.24594
2380.0 -1866776.46055
2390.0 -1866781.67968
2400.0 -1866786.90329
2410.0 -1866792.13137
2420.0 -1866797.3639
2430.0 -1866802.60087
2440.0 -1866807.84226
2450.0 -1866813.08805
2460.0 -1866818.33821
2470.0 -1866823.59274
2480.0 -1866828.85162
2490.0 -1866834.11482
2500.0 -1866839.38234
2510.0 -1866844.65415
2520.0 -1866849.93024
2530.0 -1866855.21059
2540.0 -1866860.49519
2550.0 -1866865.78401
2560.0 -1866871.07705
2570.0 -1866876.37428
2580.0 -1866881.67569
2590.0 -1866886.98126
2600.0 -1866892.29098
2610.0 -1866897.60483
2620.0 -1866902.9228
2630.0 -1866908.24487
2640.0 -1866913.57102
2650.0 -1866918.90125
2660.0 -1866924.23552
2670.0 -1866929.57384
2680.0 -1866934.91618
2690.0 -1866940.26253
2700.0 -1866945.61288
2710.0 -1866950.96721
2720.0 -1866956.3255
2730.0 -1866961.68775
2740.0 -1866967.05393
2750.0 -1866972.42403
2760.0 -1866977.79804
2770.0 -1866983.17595
2780.0 -1866988.55774
2790.0 -1866993.9434
2800.0 -1866999.33291
2810.0 -1867004.72626
2820.0 -1867010.12343
2830.0 -1867015.52442
2840.0 -1867020.92921
2850.0 -1867026.33778
2860.0 -1867031.75013
2870.0 -1867037.16624
2880.0 -1867042.58609
2890.0 -1867048.00968
2900.0 -1867053.43699
2910.0 -1867058.86801
2920.0 -1867064.30272
2930.0 -1867069.74112
2940.0 -1867075.18319
2950.0 -1867080.62892
2960.0 -1867086.07829
2970.0 -1867091.5313
2980.0 -1867096.98793
2990.0 -1867102.44817
3000.0 -1867107.91201
3010.0 -1867113.37943
3020.0 -1867118.85043
3030.0 -1867124.325
3040.0 -1867129.80311
