#temperature (K)# #Gibbs free energy (kJ / mol)#
100.0 -13129408.4949
110.0 -13129411.8388
120.0 -13129415.2962
130.0 -13129418.8664
140.0 -13129422.5484
150.0 -13129426.3408
160.0 -13129430.2423
170.0 -13129434.2514
180.0 -13129438.3665
190.0 -13129442.5861
200.0 -13129446.9085
210.0 -13129451.3321
220.0 -13129455.8553
230.0 -13129460.4765
240.0 -13129465.1941
250.0 -13129470.0063
260.0 -13129474.9117
270.0 -13129479.9087
280.0 -13129484.9957
290.0 -13129490.1712
300.0 -13129495.4337
310.0 -13129500.7817
320.0 -13129506.2138
330.0 -13129511.7285
340.0 -13129517.3244
350.0 -13129523.0002
360.0 -13129528.7545
370.0 -13129534.5861
380.0 -13129540.4936
390.0 -13129546.4758
400.0 -13129552.5314
410.0 -13129558.6594
420.0 -13129564.8584
430.0 -13129571.1274
440.0 -13129577.4653
450.0 -13129583.871
460.0 -13129590.3434
470.0 -13129596.8815
480.0 -13129603.4843
490.0 -13129610.1508
500.0 -13129616.8801
510.0 -13129623.6711
520.0 -13129630.5231
530.0 -13129637.4351
540.0 -13129644.4062
550.0 -13129651.4356
560.0 -13129658.5225
570.0 -13129665.6661
580.0 -13129672.8655
590.0 -13129680.1201
600.0 -13129687.429
610.0 -13129694.7916
620.0 -13129702.2071
630.0 -13129709.6748
640.0 -13129717.194
650.0 -13129724.7641
660.0 -13129732.3844
670.0 -13129740.0543
680.0 -13129747.7732
690.0 -13129755.5404
700.0 -13129763.3554
710.0 -13129771.2175
720.0 -13129779.1263
730.0 -13129787.0811
740.0 -13129795.0814
750.0 -13129803.1267
760.0 -13129811.2165
770.0 -13129819.3502
780.0 -13129827.5273
790.0 -13129835.7474
800.0 -13129844.01
810.0 -13129852.3146
820.0 -13129860.6608
830.0 -13129869.048
840.0 -13129877.4759
850.0 -13129885.9441
860.0 -13129894.452
870.0 -13129902.9994
880.0 -13129911.5857
890.0 -13129920.2106
900.0 -13129928.8737
910.0 -13129937.5746
920.0 -13129946.3129
930.0 -13129955.0883
940.0 -13129963.9004
950.0 -13129972.7489
960.0 -13129981.6333
970.0 -13129990.5534
980.0 -13129999.5088
990.0 -13130008.4992
1000.0 -13130017.5242
1010.0 -13130026.5836
1020.0 -13130035.677
1030.0 -13130044.8041
1040.0 -13130053.9646
1050.0 -13130063.1582
1060.0 -13130072.3847
1070.0 -13130081.6436
1080.0 -13130090.9349
1090.0 -13130100.2581
1100.0 -13130109.613
1110.0 -13130118.9993
1120.0 -13130128.4168
1130.0 -13130137.8652
1140.0 -13130147.3442
1150.0 -13130156.8537
1160.0 -13130166.3932
1170.0 -13130175.9627
1180.0 -13130185.5619
1190.0 -13130195.1904
1200.0 -13130204.8482
1210.0 -13130214.5349
1220.0 -13130224.2503
1230.0 -13130233.9943
1240.0 -13130243.7665
1250.0 -13130253.5669
1260.0 -13130263.395
1270.0 -13130273.2509
1280.0 -13130283.1342
1290.0 -13130293.0447
1300.0 -13130302.9822
1310.0 -13130312.9466
1320.0 -13130322.9377
1330.0 -13130332.9552
1340.0 -13130342.999
1350.0 -13130353.0688
1360.0 -13130363.1645
1370.0 -13130373.286
1380.0 -13130383.433
1390.0 -13130393.6053
1400.0 -13130403.8028
1410.0 -13130414.0253
1420.0 -13130424.2727
1430.0 -13130434.5447
1440.0 -13130444.8412
1450.0 -13130455.1621
1460.0 -13130465.5072
1470.0 -13130475.8762
1480.0 -13130486.2691
1490.0 -13130496.6858
1500.0 -13130507.126
1510.0 -13130517.5895
1520.0 -13130528.0764
1530.0 -13130538.5863
1540.0 -13130549.1192
1550.0 -13130559.6749
1560.0 -13130570.2533
1570.0 -13130580.8543
1580.0 -13130591.4776
1590.0 -13130602.1231
1600.0 -13130612.7908
1610.0 -13130623.4805
1620.0 -13130634.192
1630.0 -13130644.9253
1640.0 -13130655.6802
1650.0 -13130666.4565
1660.0 -13130677.2541
1670.0 -13130688.073
1680.0 -13130698.913
1690.0 -13130709.7739
1700.0 -13130720.6557
1710.0 -13130731.5582
1720.0 -13130742.4814
1730.0 -13130753.425
1740.0 -13130764.389
1750.0 -13130775.3733
1760.0 -13130786.3778
1770.0 -13130797.4022
1780.0 -13130808.4467
1790.0 -13130819.5109
1800.0 -13130830.5949
1810.0 -13130841.6984
1820.0 -13130852.8215
1830.0 -13130863.964
1840.0 -13130875.1257
1850.0 -13130886.3067
1860.0 -13130897.5068
1870.0 -13130908.7258
1880.0 -13130919.9637
1890.0 -13130931.2205
1900.0 -13130942.4959
1910.0 -13130953.7899
1920.0 -13130965.1025
1930.0 -13130976.4334
1940.0 -13130987.7827
1950.0 -13130999.1502
1960.0 -13131010.5358
1970.0 -13131021.9395
1980.0 -13131033.3611
1990.0 -13131044.8006
2000.0 -13131056.2579
2010.0 -13131067.7329
2020.0 -13131079.2255
2030.0 -13131090.7355
2040.0 -13131102.2631
2050.0 -13131113.808
2060.0 -13131125.3701
2070.0 -13131136.9494
2080.0 -13131148.5459
2090.0 -13131160.1593
2100.0 -13131171.7897
2110.0 -13131183.437
2120.0 -13131195.1011
2130.0 -13131206.7818
2140.0 -13131218.4792
2150.0 -13131230.1932
2160.0 -13131241.9236
2170.0 -13131253.6705
2180.0 -13131265.4336
2190.0 -13131277.2131
2200.0 -13131289.0087
2210.0 -13131300.8204
2220.0 -13131312.6482
2230.0 -13131324.4919
2240.0 -13131336.3515
2250.0 -13131348.227
2260.0 -13131360.1182
2270.0 -13131372.0251
2280.0 -13131383.9476
2290.0 -13131395.8857
2300.0 -13131407.8393
2310.0 -13131419.8083
2320.0 -13131431.7926
2330.0 -13131443.7923
2340.0 -13131455.8072
2350.0 -13131467.8372
2360.0 -13131479.8823
2370.0 -13131491.9425
2380.0 -13131504.0177
2390.0 -13131516.1077
2400.0 -13131528.2126
2410.0 -13131540.3323
2420.0 -13131552.4668
2430.0 -13131564.6158
2440.0 -13131576.7796
2450.0 -13131588.9578
2460.0 -13131601.1506
2470.0 -13131613.3577
2480.0 -13131625.5793
2490.0 -13131637.8152
2500.0 -13131650.0653
2510.0 -13131662.3296
2520.0 -13131674.6081
2530.0 -13131686.9007
2540.0 -13131699.2073
2550.0 -13131711.528
2560.0 -13131723.8625
2570.0 -13131736.2109
2580.0 -13131748.5732
2590.0 -13131760.9492
2600.0 -13131773.3389
2610.0 -13131785.7423
2620.0 -13131798.1593
2630.0 -13131810.5899
2640.0 -13131823.034
2650.0 -13131835.4915
2660.0 -13131847.9625
2670.0 -13131860.4468
2680.0 -13131872.9444
2690.0 -13131885.4553
2700.0 -13131897.9795
2710.0 -13131910.5167
2720.0 -13131923.0671
2730.0 -13131935.6306
2740.0 -13131948.2071
2750.0 -13131960.7966
2760.0 -13131973.3989
2770.0 -13131986.0142
2780.0 -13131998.6423
2790.0 -13132011.2832
2800.0 -13132023.9369
2810.0 -13132036.6032
2820.0 -13132049.2822
2830.0 -13132061.9739
2840.0 -13132074.6781
2850.0 -13132087.3948
2860.0 -13132100.124
2870.0 -13132112.8656
2880.0 -13132125.6196
2890.0 -13132138.386
2900.0 -13132151.1647
2910.0 -13132163.9556
2920.0 -13132176.7588
2930.0 -13132189.5741
2940.0 -13132202.4016
2950.0 -13132215.2412
2960.0 -13132228.0929
2970.0 -13132240.9566
2980.0 -13132253.8323
2990.0 -13132266.7199
3000.0 -13132279.6194
3010.0 -13132292.5308
3020.0 -13132305.4539
3030.0 -13132318.3889
3040.0 -13132331.3357
