#temperature (K)# #Gibbs free energy (kJ / mol)#
100.0 -18381471.6873
110.0 -18381475.4711
120.0 -18381479.4132
130.0 -18381483.5126
140.0 -18381487.7681
150.0 -18381492.1781
160.0 -18381496.7409
170.0 -18381501.4545
180.0 -18381506.317
190.0 -18381511.3263
200.0 -18381516.4803
210.0 -18381521.7768
220.0 -18381527.2138
230.0 -18381532.789
240.0 -18381538.5003
250.0 -18381544.3454
260.0 -18381550.3223
270.0 -18381556.4287
280.0 -18381562.6626
290.0 -18381569.0218
300.0 -18381575.5042
310.0 -18381582.1078
320.0 -18381588.8306
330.0 -18381595.6706
340.0 -18381602.6258
350.0 -18381609.6944
360.0 -18381616.8744
370.0 -18381624.1639
380.0 -18381631.5613
390.0 -18381639.0648
400.0 -18381646.6725
410.0 -18381654.3829
420.0 -18381662.1943
430.0 -18381670.105
440.0 -18381678.1136
450.0 -18381686.2184
460.0 -18381694.418
470.0 -18381702.7109
480.0 -18381711.0957
490.0 -18381719.571
500.0 -18381728.1354
510.0 -18381736.7876
520.0 -18381745.5263
530.0 -18381754.3503
540.0 -18381763.2582
550.0 -18381772.249
560.0 -18381781.3215
570.0 -18381790.4744
580.0 -18381799.7067
590.0 -18381809.0173
600.0 -18381818.4051
610.0 -18381827.8691
620.0 -18381837.4082
630.0 -18381847.0215
640.0 -18381856.708
650.0 -18381866.4667
660.0 -18381876.2968
670.0 -18381886.1973
680.0 -18381896.1673
690.0 -18381906.206
700.0 -18381916.3125
710.0 -18381926.486
720.0 -18381936.7257
730.0 -18381947.0308
740.0 -18381957.4005
750.0 -18381967.8341
760.0 -18381978.3309
770.0 -18381988.89
780.0 -18381999.5108
790.0 -18382010.1926
800.0 -18382020.9348
810.0 -18382031.7365
820.0 -18382042.5973
830.0 -18382053.5165
840.0 -18382064.4933
850.0 -18382075.5273
860.0 -18382086.6178
870.0 -18382097.7643
880.0 -18382108.9661
890.0 -18382120.2226
900.0 -18382131.5334
910.0 -18382142.8979
920.0 -18382154.3155
930.0 -18382165.7857
940.0 -18382177.308
950.0 -18382188.8819
960.0 -18382200.5069
970.0 -18382212.1826
980.0 -18382223.9083
990.0 -18382235.6837
1000.0 -18382247.5083
1010.0 -18382259.3816
1020.0 -18382271.3033
1030.0 -18382283.2728
1040.0 -18382295.2897
1050.0 -18382307.3536
1060.0 -18382319.4641
1070.0 -18382331.6208
1080.0 -18382343.8233
1090.0 -18382356.0712
1100.0 -18382368.364
1110.0 -18382380.7015
1120.0 -18382393.0831
1130.0 -18382405.5087
1140.0 -18382417.9777
1150.0 -18382430.4899
1160.0 -18382443.0449
1170.0 -18382455.6423
1180.0 -18382468.2818
1190.0 -18382480.9631
1200.0 -18382493.6858
1210.0 -18382506.4496
1220.0 -18382519.2541
1230.0 -18382532.0992
1240.0 -18382544.9844
1250.0 -18382557.9094
1260.0 -18382570.874
1270.0 -18382583.8778
1280.0 -18382596.9206
1290.0 -18382610.0021
1300.0 -18382623.1219
1310.0 -18382636.2798
1320.0 -18382649.4755
1330.0 -18382662.7088
1340.0 -18382675.9793
1350.0 -18382689.2869
1360.0 -18382702.6312
1370.0 -18382716.012
1380.0 -18382729.429
1390.0 -18382742.882
1400.0 -18382756.3707
1410.0 -18382769.895
1420.0 -18382783.4544
1430.0 -18382797.0489
1440.0 -18382810.6782
1450.0 -18382824.3419
1460.0 -18382838.04
1470.0 -18382851.7722
1480.0 -18382865.5383
1490.0 -18382879.338
1500.0 -18382893.1711
1510.0 -18382907.0374
1520.0 -18382920.9367
1530.0 -18382934.8688
1540.0 -18382948.8335
1550.0 -18382962.8306
1560.0 -18382976.8598
1570.0 -18382990.921
1580.0 -18383005.014
1590.0 -18383019.1385
1600.0 -18383033.2945
1610.0 -18383047.4817
1620.0 -18383061.6998
1630.0 -18383075.9488
1640.0 -18383090.2285
1650.0 -18383104.5386
1660.0 -18383118.8789
1670.0 -18383133.2494
1680.0 -18383147.6499
1690.0 -18383162.08
1700.0 -18383176.5398
1710.0 -18383191.029
1720.0 -18383205.5474
1730.0 -18383220.0949
1740.0 -18383234.6714
1750.0 -18383249.2766
1760.0 -18383263.9104
1770.0 -18383278.5726
1780.0 -18383293.2631
1790.0 -18383307.9818
1800.0 -18383322.7284
1810.0 -18383337.5029
1820.0 -18383352.305
1830.0 -18383367.1346
1840.0 -18383381.9917
1850.0 -18383396.8759
1860.0 -18383411.7873
1870.0 -18383426.7256
1880.0 -18383441.6907
1890.0 -18383456.6825
1900.0 -18383471.7008
1910.0 -18383486.7455
1920.0 -18383501.8165
1930.0 -18383516.9136
1940.0 -18383532.0367
1950.0 -18383547.1856
1960.0 -18383562.3603
1970.0 -18383577.5606
1980.0 -18383592.7864
1990.0 -18383608.0375
2000.0 -18383623.3138
2010.0 -18383638.6152
2020.0 -18383653.9417
2030.0 -18383669.2929
2040.0 -18383684.6689
2050.0 -18383700.0696
2060.0 -18383715.4947
2070.0 -18383730.9442
2080.0 -18383746.418
2090.0 -18383761.916
2100.0 -18383777.4379
2110.0 -18383792.9839
2120.0 -18383808.5536
2130.0 -18383824.147
2140.0 -18383839.7641
2150.0 -18383855.4046
2160.0 -18383871.0685
2170.0 -18383886.7557
2180.0 -18383902.466
2190.0 -18383918.1994
2200.0 -18383933.9558
2210.0 -18383949.7351
2220.0 -18383965.5371
2230.0 -18383981.3617
2240.0 -18383997.2089
2250.0 -18384013.0786
2260.0 -18384028.9706
2270.0 -18384044.8849
2280.0 -18384060.8214
2290.0 -18384076.7799
2300.0 -18384092.7604
2310.0 -18384108.7628
2320.0 -18384124.787
2330.0 -18384140.8329
2340.0 -18384156.9004
2350.0 -18384172.9893
2360.0 -18384189.0998
2370.0 -18384205.2315
2380.0 -18384221.3845
2390.0 -18384237.5586
2400.0 -18384253.7539
2410.0 -18384269.9701
2420.0 -18384286.2072
2430.0 -18384302.4651
2440.0 -18384318.7437
2450.0 -18384335.043
2460.0 -18384351.3628
2470.0 -18384367.7032
2480.0 -18384384.0639
2490.0 -18384400.4449
2500.0 -18384416.8462
2510.0 -18384433.2676
2520.0 -18384449.7091
2530.0 -18384466.1706
2540.0 -18384482.652
2550.0 -18384499.1533
2560.0 -18384515.6743
2570.0 -18384532.215
2580.0 -18384548.7753
2590.0 -18384565.3552
2600.0 -18384581.9545
2610.0 -18384598.5732
2620.0 -18384615.2112
2630.0 -18384631.8685
2640.0 -18384648.5449
2650.0 -18384665.2405
2660.0 -18384681.955
2670.0 -18384698.6886
2680.0 -18384715.441
2690.0 -18384732.2122
2700.0 -18384749.0022
2710.0 -18384765.8108
2720.0 -18384782.6381
2730.0 -18384799.4839
2740.0 -18384816.3482
2750.0 -18384833.2309
2760.0 -18384850.1319
2770.0 -18384867.0512
2780.0 -18384883.9888
2790.0 -18384900.9444
2800.0 -18384917.9182
2810.0 -18384934.91
2820.0 -18384951.9197
2830.0 -18384968.9473
2840.0 -18384985.9928
2850.0 -18385003.056
2860.0 -18385020.1369
2870.0 -18385037.2355
2880.0 -18385054.3517
2890.0 -18385071.4854
2900.0 -18385088.6365
2910.0 -18385105.8051
2920.0 -18385122.991
2930.0 -18385140.1941
2940.0 -18385157.4145
2950.0 -18385174.6521
2960.0 -18385191.9068
2970.0 -18385209.1786
2980.0 -18385226.4673
2990.0 -18385243.773
3000.0 -18385261.0956
3010.0 -18385278.435
3020.0 -18385295.7911
3030.0 -18385313.164
3040.0 -18385330.5536
