#temperature (K)# #Gibbs free energy (kJ / mol)#
100.0 -21007504.2896
110.0 -21007508.2264
120.0 -21007512.3434
130.0 -21007516.6399
140.0 -21007521.1147
150.0 -21007525.7662
160.0 -21007530.5926
170.0 -21007535.5917
180.0 -21007540.7614
190.0 -21007546.0994
200.0 -21007551.6033
210.0 -21007557.2707
220.0 -21007563.0991
230.0 -21007569.086
240.0 -21007575.2289
250.0 -21007581.5254
260.0 -21007587.9729
270.0 -21007594.569
280.0 -21007601.3113
290.0 -21007608.1972
300.0 -21007615.2245
310.0 -21007622.3908
320.0 -21007629.6938
330.0 -21007637.1311
340.0 -21007644.7006
350.0 -21007652.4
360.0 -21007660.2272
370.0 -21007668.1801
380.0 -21007676.2566
390.0 -21007684.4547
400.0 -21007692.7725
410.0 -21007701.2079
420.0 -21007709.7591
430.0 -21007718.4243
440.0 -21007727.2017
450.0 -21007736.0894
460.0 -21007745.0858
470.0 -21007754.1893
480.0 -21007763.3981
490.0 -21007772.7107
500.0 -21007782.1255
510.0 -21007791.641
520.0 -21007801.2557
530.0 -21007810.9682
540.0 -21007820.7771
550.0 -21007830.6809
560.0 -21007840.6784
570.0 -21007850.7681
580.0 -21007860.949
590.0 -21007871.2196
600.0 -21007881.5787
610.0 -21007892.0253
620.0 -21007902.558
630.0 -21007913.1759
640.0 -21007923.8776
650.0 -21007934.6623
660.0 -21007945.5288
670.0 -21007956.476
680.0 -21007967.503
690.0 -21007978.6088
700.0 -21007989.7923
710.0 -21008001.0527
720.0 -21008012.3891
730.0 -21008023.8005
740.0 -21008035.286
750.0 -21008046.8447
760.0 -21008058.4759
770.0 -21008070.1787
780.0 -21008081.9522
790.0 -21008093.7957
800.0 -21008105.7084
810.0 -21008117.6896
820.0 -21008129.7384
830.0 -21008141.8542
840.0 -21008154.0362
850.0 -21008166.2837
860.0 -21008178.5961
870.0 -21008190.9726
880.0 -21008203.4126
890.0 -21008215.9155
900.0 -21008228.4806
910.0 -21008241.1072
920.0 -21008253.7948
930.0 -21008266.5428
940.0 -21008279.3506
950.0 -21008292.2175
960.0 -21008305.1431
970.0 -21008318.1267
980.0 -21008331.1679
990.0 -21008344.266
1000.0 -21008357.4205
1010.0 -21008370.631
1020.0 -21008383.8969
1030.0 -21008397.2177
1040.0 -21008410.5929
1050.0 -21008424.022
1060.0 -21008437.5046
1070.0 -21008451.0402
1080.0 -21008464.6283
1090.0 -21008478.2684
1100.0 -21008491.9602
1110.0 -21008505.7032
1120.0 -21008519.4969
1130.0 -21008533.3409
1140.0 -21008547.2349
1150.0 -21008561.1783
1160.0 -21008575.1708
1170.0 -21008589.212
1180.0 -21008603.3016
1190.0 -21008617.439
1200.0 -21008631.624
1210.0 -21008645.8561
1220.0 -21008660.135
1230.0 -21008674.4604
1240.0 -21008688.8318
1250.0 -21008703.2489
1260.0 -21008717.7114
1270.0 -21008732.219
1280.0 -21008746.7712
1290.0 -21008761.3678
1300.0 -21008776.0084
1310.0 -21008790.6927
1320.0 -21008805.4204
1330.0 -21008820.1912
1340.0 -21008835.0048
1350.0 -21008849.8608
1360.0 -21008864.759
1370.0 -21008879.6991
1380.0 -21008894.6807
1390.0 -21008909.7036
1400.0 -21008924.7675
1410.0 -21008939.8721
1420.0 -21008955.0172
1430.0 -21008970.2024
1440.0 -21008985.4276
1450.0 -21009000.6924
1460.0 -21009015.9965
1470.0 -21009031.3397
1480.0 -21009046.7218
1490.0 -21009062.1425
1500.0 -21009077.6016
1510.0 -21009093.0988
1520.0 -21009108.6338
1530.0 -21009124.2064
1540.0 -21009139.8164
1550.0 -21009155.4636
1560.0 -21009171.1477
1570.0 -21009186.8685
1580.0 -21009202.6257
1590.0 -21009218.4192
1600.0 -21009234.2487
1610.0 -21009250.114
1620.0 -21009266.0149
1630.0 -21009281.9511
1640.0 -21009297.9226
1650.0 -21009313.9289
1660.0 -21009329.97
1670.0 -21009346.0457
1680.0 -21009362.1557
1690.0 -21009378.2999
1700.0 -21009394.478
1710.0 -21009410.6898
1720.0 -21009426.9352
1730.0 -21009443.214
1740.0 -21009459.526
1750.0 -21009475.871
1760.0 -21009492.2488
1770.0 -21009508.6592
1780.0 -21009525.1021
1790.0 -21009541.5772
1800.0 -21009558.0845
1810.0 -21009574.6237
1820.0 -21009591.1946
1830.0 -21009607.7972
1840.0 -21009624.4311
1850.0 -21009641.0963
1860.0 -21009657.7926
1870.0 -21009674.5198
1880.0 -21009691.2778
1890.0 -21009708.0664
1900.0 -21009724.8854
1910.0 -21009741.7347
1920.0 -21009758.6141
1930.0 -21009775.5235
1940.0 -21009792.4628
1950.0 -21009809.4317
1960.0 -21009826.4301
1970.0 -21009843.4579
1980.0 -21009860.515
1990.0 -21009877.6011
2000.0 -21009894.7162
2010.0 -21009911.8601
2020.0 -21009929.0326
2030.0 -21009946.2337
2040.0 -21009963.4632
2050.0 -21009980.7209
2060.0 -21009998.0067
2070.0 -21010015.3205
2080.0 -21010032.6622
2090.0 -21010050.0315
2100.0 -21010067.4285
2110.0 -21010084.8529
2120.0 -21010102.3047
2130.0 -21010119.7836
2140.0 -21010137.2896
2150.0 -21010154.8226
2160.0 -21010172.3824
2170.0 -21010189.969
2180.0 -21010207.5821
2190.0 -21010225.2216
2200.0 -21010242.8876
2210.0 -21010260.5797
2220.0 -21010278.298
2230.0 -21010296.0423
2240.0 -21010313.8124
2250.0 -21010331.6084
2260.0 -21010349.4299
2270.0 -21010367.2771
2280.0 -21010385.1496
2290.0 -21010403.0475
2300.0 -21010420.9706
2310.0 -21010438.9189
2320.0 -21010456.8921
2330.0 -21010474.8902
2340.0 -21010492.9131
2350.0 -21010510.9607
2360.0 -21010529.0329
2370.0 -21010547.1295
2380.0 -21010565.2506
2390.0 -21010583.3959
2400.0 -21010601.5654
2410.0 -21010619.7589
2420.0 -21010637.9765
2430.0 -21010656.2179
2440.0 -21010674.4831
2450.0 -21010692.772
2460.0 -21010711.0845
2470.0 -21010729.4205
2480.0 -21010747.7799
2490.0 -21010766.1626
2500.0 -21010784.5685
2510.0 -21010802.9976
2520.0 -21010821.4497
2530.0 -21010839.9247
2540.0 -21010858.4226
2550.0 -21010876.9433
2560.0 -21010895.4866
2570.0 -21010914.0526
2580.0 -21010932.641
2590.0 -21010951.2519
2600.0 -21010969.8851
2610.0 -21010988.5405
2620.0 -21011007.2181
2630.0 -21011025.9178
2640.0 -21011044.6395
2650.0 -21011063.3831
2660.0 -21011082.1485
2670.0 -21011100.9357
2680.0 -21011119.7446
2690.0 -21011138.575
2700.0 -21011157.427
2710.0 -21011176.3004
2720.0 -21011195.1952
2730.0 -21011214.1112
2740.0 -21011233.0485
2750.0 -21011252.0068
2760.0 -21011270.9862
2770.0 -21011289.9866
2780.0 -21011309.0079
2790.0 -21011328.05
2800.0 -21011347.1129
2810.0 -21011366.1964
2820.0 -21011385.3006
2830.0 -21011404.4253
2840.0 -21011423.5704
2850.0 -21011442.7359
2860.0 -21011461.9218
2870.0 -21011481.1279
2880.0 -21011500.3541
2890.0 -21011519.6005
2900.0 -21011538.8669
2910.0 -21011558.1533
2920.0 -21011577.4596
2930.0 -21011596.7857
2940.0 -21011616.1316
2950.0 -21011635.4972
2960.0 -21011654.8825
2970.0 -21011674.2873
2980.0 -21011693.7116
2990.0 -21011713.1553
3000.0 -21011732.6185
3010.0 -21011752.1009
3020.0 -21011771.6026
3030.0 -21011791.1234
3040.0 -21011810.6634
